File: filelist_for_xrd.txt
7034459.cif
7221211.cif
2104807.cif
1567391.cif
7221205.cif
7713054.cif
1509306.cif
1541418.cif
1538865.cif
7020835.cif
9002686.cif
7222730.cif
1522197.cif
4000938.cif
2103615.cif
7117900.cif
7124312.cif
1525161.cif
7117914.cif
4326953.cif
1525607.cif
1010311.cif
1524531.cif
1532435.cif
1526440.cif
1528479.cif
1532421.cif
8103666.cif
9002123.cif
1525603.cif
1528327.cif
2008744.cif
9008436.cif
1533713.cif
9002669.cif
1538120.cif
7711690.cif
7234195.cif
1527028.cif
9006341.cif
4343881.cif
1508975.cif
7204724.cif
4031263.cif
1522144.cif
1531886.cif
5910077.cif
7711121.cif
1567381.cif
1542129.cif
4323620.cif
2015932.cif
2020751.cif
1536858.cif
4343856.cif
1536694.cif
4119538.cif
4126910.cif
9011832.cif
9011365.cif
4116384.cif
9003007.cif
4030431.cif
9001604.cif
9003013.cif
4348526.cif
8104441.cif
9003985.cif
9004032.cif
9016436.cif
9016350.cif
9014547.cif
1530742.cif
1526120.cif
1534524.cif
9009502.cif
2104426.cif
4300589.cif
8104496.cif
2210400.cif
1563483.cif
1526861.cif
9008813.cif
1539969.cif
4319782.cif
1532182.cif
1535821.cif
1510451.cif
1537950.cif
9000283.cif
9008740.cif
1541959.cif
9015711.cif
8103528.cif
2243689.cif
1546944.cif
9004608.cif
1521061.cif
8104535.cif
1570560.cif
2002645.cif
1524657.cif
1525549.cif
4340754.cif
9001994.cif
1532747.cif
1533459.cif
4340032.cif
1563285.cif
1511613.cif
1524864.cif
4315782.cif
2002686.cif
1511149.cif
1541018.cif
9011588.cif
1510525.cif
4513194.cif
4334770.cif
7031109.cif
1008406.cif
2103017.cif
4502270.cif
7209348.cif
1531070.cif
1527174.cif
9005714.cif
7222683.cif
1532237.cif
8103716.cif
1531058.cif
1510096.cif
1570776.cif
1522756.cif
2015649.cif
4349214.cif
1526256.cif
1512118.cif
1007084.cif
7059276.cif
1539389.cif
7716060.cif
7222640.cif
1527821.cif
2106190.cif
4320507.cif
4336403.cif
1545068.cif
1510040.cif
9007843.cif
2006191.cif
2016396.cif
1525789.cif
2310987.cif
2310777.cif
1529825.cif
1534874.cif
1512119.cif
1511376.cif
7221412.cif
2107258.cif
1530353.cif
9012255.cif
4310360.cif
1532222.cif
7209407.cif
1536050.cif
1528508.cif
4329293.cif
9003402.cif
9011006.cif
9008557.cif
1529158.cif
1537366.cif
1510915.cif
9008225.cif
4343710.cif
1538727.cif
1526096.cif
9010683.cif
2002693.cif
9014397.cif
1534486.cif
1526082.cif
1509049.cif
1539834.cif
1532961.cif
4002535.cif
4340966.cif
2014754.cif
9001995.cif
4340033.cif
8103267.cif
7037021.cif
9009463.cif
1530145.cif
1011368.cif
7030028.cif
9013375.cif
1011340.cif
9001017.cif
1509934.cif
1541958.cif
2107072.cif
1563521.cif
1538243.cif
1530780.cif
9006195.cif
9002495.cif
1549243.cif
1537945.cif
1565965.cif
7055713.cif
4319783.cif
1539798.cif
1532815.cif
7001418.cif
4002327.cif
9000527.cif
9004999.cif
4349605.cif
2100641.cif
9011358.cif
9012889.cif
1526653.cif
1521882.cif
9005463.cif
9010708.cif
1563441.cif
9013567.cif
1509698.cif
9003760.cif
2107106.cif
1533262.cif
9005477.cif
9013215.cif
1527940.cif
9000080.cif
2107489.cif
9005846.cif
7033694.cif
1524285.cif
4118155.cif
9002873.cif
4517907.cif
2310171.cif
4327453.cif
1545653.cif
7117939.cif
2019660.cif
9002132.cif
2002240.cif
1522151.cif
2105249.cif
1508974.cif
2106026.cif
1001543.cif
9008423.cif
1525616.cif
2020963.cif
8100356.cif
1531677.cif
7701496.cif
9001375.cif
2017665.cif
7032563.cif
8103891.cif
2108021.cif
1521314.cif
1537562.cif
4305633.cif
9007060.cif
1539229.cif
9007048.cif
9006356.cif
1008559.cif
2310826.cif
9006424.cif
4512128.cif
2104155.cif
2002256.cif
1534902.cif
1511214.cif
4124686.cif
1511200.cif
7713053.cif
1510650.cif
2106795.cif
1533937.cif
1510136.cif
2104828.cif
7124498.cif
1509315.cif
2105707.cif
1535163.cif
9000519.cif
9003010.cif
4337483.cif
1535611.cif
4030354.cif
1010882.cif
2109101.cif
1539765.cif
7002846.cif
1532156.cif
9006140.cif
1527229.cif
9012135.cif
2237725.cif
9000257.cif
4333154.cif
1528697.cif
4000526.cif
1541153.cif
1511002.cif
1527598.cif
9017924.cif
1522386.cif
7222521.cif
9014587.cif
1535188.cif
1510320.cif
1007246.cif
1006158.cif
1533300.cif
7044783.cif
9013377.cif
1538241.cif
4031658.cif
7228193.cif
4317141.cif
9001029.cif
7224959.cif
9012055.cif
8103503.cif
1535981.cif
1522225.cif
2102652.cif
9012727.cif
9000323.cif
1560943.cif
1530812.cif
7241858.cif
1541999.cif
9006975.cif
1001810.cif
4344294.cif
1569783.cif
1521937.cif
9010695.cif
4339243.cif
1561122.cif
1531715.cif
4122426.cif
1535215.cif
9003400.cif
1540846.cif
9001203.cif
1523305.cif
1000059.cif
9006222.cif
1537358.cif
1529600.cif
2003996.cif
1532546.cif
9016743.cif
2104747.cif
4102906.cif
9010454.cif
1011183.cif
4331435.cif
1563084.cif
1511374.cif
7221376.cif
7222657.cif
1544375.cif
1523488.cif
4320510.cif
2310985.cif
1544361.cif
9005924.cif
1522783.cif
1541218.cif
9010496.cif
1525946.cif
9002086.cif
4343920.cif
1536912.cif
1534863.cif
1001385.cif
4113639.cif
9009689.cif
9002737.cif
9016742.cif
9010455.cif
1526240.cif
9002045.cif
9000652.cif
1532221.cif
1524325.cif
1536721.cif
1527604.cif
9015277.cif
1510916.cif
9010469.cif
9011777.cif
1526268.cif
1537365.cif
1008376.cif
9011005.cif
7058817.cif
9004839.cif
1001805.cif
1514033.cif
1514027.cif
1008835.cif
9010858.cif
7221175.cif
7701046.cif
1541998.cif
1532962.cif
1528084.cif
4118585.cif
7026891.cif
9006753.cif
1528709.cif
7224958.cif
1525239.cif
1524641.cif
9012054.cif
9007317.cif
1011357.cif
2005114.cif
9007465.cif
4124532.cif
4308074.cif
7025368.cif
4323597.cif
9014586.cif
2104395.cif
2102082.cif
9010092.cif
1527599.cif
9004959.cif
4307582.cif
9006800.cif
1538491.cif
4119062.cif
1524912.cif
9015868.cif
1000312.cif
2225446.cif
9007539.cif
1529563.cif
1006011.cif
7049488.cif
9009266.cif
1000306.cif
1535610.cif
1528127.cif
1537761.cif
8104457.cif
9008622.cif
1537775.cif
1521671.cif
1533275.cif
1524286.cif
9013955.cif
1525826.cif
7036923.cif
4326766.cif
1538863.cif
4124863.cif
4330892.cif
9000915.cif
1520976.cif
4315390.cif
1511215.cif
7244316.cif
1522634.cif
2002257.cif
1531648.cif
9002131.cif
2310199.cif
9006431.cif
1570600.cif
1535374.cif
1540933.cif
1520779.cif
9011603.cif
1532369.cif
1533077.cif
1549903.cif
9014009.cif
2107313.cif
2102556.cif
2202288.cif
2002542.cif
1528418.cif
2310854.cif
1524544.cif
1539273.cif
9007012.cif
7214208.cif
1540940.cif
9001305.cif
9017567.cif
4514503.cif
1011046.cif
9006318.cif
4001460.cif
1536197.cif
1561971.cif
2002581.cif
1522848.cif
1540773.cif
4307903.cif
1524587.cif
1520911.cif
7221516.cif
1529921.cif
4313792.cif
1001719.cif
9017759.cif
2311784.cif
2002026.cif
1536356.cif
2102998.cif
1004113.cif
9010022.cif
1006062.cif
9008645.cif
1008067.cif
4002394.cif
9011472.cif
2005761.cif
1527273.cif
3000256.cif
1560886.cif
2108251.cif
1559034.cif
4003075.cif
7709247.cif
1540217.cif
2020250.cif
1541647.cif
4315693.cif
1011293.cif
7223671.cif
8104395.cif
1526810.cif
1537882.cif
1524140.cif
1525538.cif
1008649.cif
1521992.cif
9009361.cif
1514097.cif
1526743.cif
9017611.cif
1527475.cif
7108289.cif
1563551.cif
1525510.cif
1008661.cif
1010990.cif
1524168.cif
1534390.cif
9002585.cif
2104292.cif
1532093.cif
9005598.cif
1510232.cif
9017822.cif
1528785.cif
8100093.cif
1541041.cif
1535918.cif
1001686.cif
1520642.cif
1510959.cif
2106644.cif
1522733.cif
1517788.cif
7222180.cif
1522041.cif
2105359.cif
1522069.cif
4337787.cif
1510965.cif
1531015.cif
2310908.cif
9007614.cif
1528550.cif
1527105.cif
8103997.cif
1525921.cif
9005956.cif
1527850.cif
9011089.cif
2021238.cif
4341822.cif
1522082.cif
1541257.cif
1534810.cif
1538794.cif
4101528.cif
7711030.cif
1520871.cif
1538781.cif
1525908.cif
8103799.cif
1538795.cif
1544448.cif
1536948.cif
4313803.cif
1531799.cif
1509212.cif
2012181.cif
1517992.cif
2240858.cif
4002949.cif
8104021.cif
1521575.cif
1528237.cif
1011127.cif
4332826.cif
4313156.cif
1526568.cif
8103014.cif
9013884.cif
1010211.cif
1524431.cif
4000810.cif
1535528.cif
1000016.cif
1539474.cif
2002437.cif
9004863.cif
1526965.cif
1544886.cif
1001693.cif
1530875.cif
1530685.cif
1523821.cif
1509762.cif
2014094.cif
1533398.cif
1521944.cif
1526018.cif
7125468.cif
9017604.cif
4030247.cif
1537673.cif
1528747.cif
4305536.cif
4322837.cif
7055831.cif
2002147.cif
9002553.cif
1561409.cif
2225232.cif
7037050.cif
1006103.cif
9015985.cif
9007359.cif
8104394.cif
3000294.cif
1523969.cif
2219454.cif
1518055.cif
8104380.cif
7047372.cif
2106282.cif
1560878.cif
4308199.cif
9010792.cif
1509164.cif
1000348.cif
1532119.cif
1523772.cif
1528627.cif
1527500.cif
4344378.cif
8104425.cif
9002369.cif
1523028.cif
4518660.cif
2009166.cif
1521159.cif
9006899.cif
1534226.cif
1539702.cif
9014537.cif
7133801.cif
7002410.cif
1534971.cif
1011090.cif
1529934.cif
7221517.cif
2310896.cif
7221259.cif
1540014.cif
4340485.cif
9013099.cif
2310882.cif
4001307.cif
1538805.cif
1008270.cif
7036010.cif
9008334.cif
1011047.cif
4002197.cif
2107413.cif
1534018.cif
1521373.cif
1540941.cif
1533987.cif
2016522.cif
9002143.cif
9017228.cif
7240664.cif
1521429.cif
4511452.cif
9001338.cif
9006327.cif
7117792.cif
1533985.cif
2015029.cif
9010237.cif
2018519.cif
1537249.cif
7246217.cif
1538152.cif
1563630.cif
7248574.cif
9012408.cif
1010429.cif
1522678.cif
9000018.cif
9011673.cif
1527066.cif
2201755.cif
4322570.cif
1533946.cif
9013931.cif
4513284.cif
4344187.cif
7232555.cif
8103823.cif
5910011.cif
2104871.cif
1522863.cif
1536816.cif
2214416.cif
1523994.cif
1511098.cif
2102743.cif
9006125.cif
9000554.cif
1534542.cif
9005438.cif
7023153.cif
2311787.cif
9013514.cif
2012578.cif
1535674.cif
4303743.cif
1010159.cif
1530718.cif
9011471.cif
1532669.cif
7203213.cif
2009819.cif
1535853.cif
1568598.cif
1511729.cif
9010790.cif
1533588.cif
9006864.cif
1001097.cif
8104382.cif
1539099.cif
4004043.cif
4030279.cif
1008138.cif
1526026.cif
8103572.cif
9008068.cif
1536221.cif
9012756.cif
1524143.cif
1007237.cif
4125884.cif
1534378.cif
4325196.cif
1551292.cif
4031629.cif
2108332.cif
1007223.cif
1001652.cif
4118244.cif
1514057.cif
1535927.cif
1521946.cif
2310248.cif
1514043.cif
1507759.cif
4337237.cif
4315096.cif
7221105.cif
4326448.cif
1001849.cif
9006253.cif
9013138.cif
7130259.cif
9011049.cif
9006521.cif
7222197.cif
7222829.cif
1562472.cif
1538026.cif
1001322.cif
8104023.cif
9011075.cif
1538740.cif
1529659.cif
9008530.cif
9007165.cif
1527112.cif
1521588.cif
9000839.cif
1524396.cif
1538967.cif
7220743.cif
2002390.cif
9005955.cif
9000805.cif
1528590.cif
7221475.cif
4338312.cif
4002022.cif
1529843.cif
2310077.cif
1541241.cif
7221474.cif
1541527.cif
1527852.cif
4321118.cif
1525923.cif
4344958.cif
9012582.cif
1542012.cif
9011060.cif
1561620.cif
7713194.cif
9003302.cif
8103981.cif
9002008.cif
1538027.cif
2010018.cif
1524368.cif
1009031.cif
4122318.cif
2106646.cif
1522057.cif
9005997.cif
1537328.cif
9016041.cif
7209307.cif
1526543.cif
9004874.cif
9008928.cif
1509991.cif
1538580.cif
2300714.cif
4002235.cif
9014483.cif
2020332.cif
1544675.cif
2002839.cif
1536591.cif
1540361.cif
9010829.cif
9008055.cif
1011326.cif
1007222.cif
9011262.cif
1535067.cif
1008105.cif
1530679.cif
7228849.cif
1539113.cif
1533358.cif
7240511.cif
4344233.cif
4121413.cif
2216823.cif
1522241.cif
1534423.cif
1536234.cif
9004900.cif
9006871.cif
1541645.cif
2310473.cif
1538392.cif
8102916.cif
1537089.cif
1530080.cif
9006859.cif
1528803.cif
1509173.cif
9007212.cif
9015616.cif
1000439.cif
9015170.cif
9010008.cif
1523771.cif
1531375.cif
1528142.cif
4345717.cif
1521628.cif
9003048.cif
4123416.cif
1534225.cif
2105987.cif
1530057.cif
1532640.cif
9008109.cif
1522335.cif
1536817.cif
2310665.cif
4325236.cif
1511502.cif
4126787.cif
2300462.cif
1523598.cif
1561973.cif
1531822.cif
4342285.cif
1531836.cif
2020050.cif
9016848.cif
9001307.cif
1538147.cif
4328909.cif
7047198.cif
9011666.cif
1546499.cif
9015366.cif
1538635.cif
9002632.cif
1524234.cif
1534999.cif
1526345.cif
1536142.cif
1534755.cif
4507227.cif
9003538.cif
1523577.cif
7712488.cif
1521406.cif
4030888.cif
1533016.cif
9009039.cif
1537270.cif
1538625.cif
2108041.cif
4307078.cif
4507223.cif
1562271.cif
9015438.cif
9002150.cif
2107428.cif
1522899.cif
9012425.cif
9009950.cif
4338511.cif
1567490.cif
7708361.cif
1563184.cif
2106087.cif
9013934.cif
7222757.cif
9010583.cif
1525853.cif
9013920.cif
2012794.cif
1563437.cif
1537066.cif
8100888.cif
8100650.cif
1101045.cif
1525310.cif
1527507.cif
1521610.cif
9000579.cif
8107665.cif
9009213.cif
1524026.cif
1526631.cif
1526625.cif
9010030.cif
9009207.cif
9010756.cif
1008908.cif
1562932.cif
4349854.cif
7118895.cif
4030485.cif
1000398.cif
9012196.cif
1510340.cif
1533599.cif
9003931.cif
9012182.cif
9001840.cif
4030526.cif
1527301.cif
4317121.cif
9007410.cif
2311812.cif
1538553.cif
1521764.cif
1004049.cif
1530899.cif
8103577.cif
1532056.cif
1530127.cif
2009767.cif
9009415.cif
1524146.cif
9005549.cif
4336892.cif
9008086.cif
2018859.cif
4331657.cif
1544895.cif
2102801.cif
2310259.cif
9002597.cif
1524191.cif
2002829.cif
9014487.cif
2011855.cif
1533610.cif
2105405.cif
1541286.cif
7222804.cif
9008247.cif
1008471.cif
1011120.cif
4318004.cif
1523417.cif
1526547.cif
9010352.cif
9009165.cif
9007148.cif
9002030.cif
1537338.cif
1532240.cif
1524344.cif
1526553.cif
1538786.cif
9009824.cif
1520877.cif
4333524.cif
4002741.cif
1537489.cif
1509201.cif
2300248.cif
9006281.cif
1531952.cif
9010385.cif
1540172.cif
4333519.cif
9001289.cif
1536796.cif
1542017.cif
9011930.cif
9014848.cif
7221303.cif
4331454.cif
9007808.cif
7203808.cif
1524423.cif
2104054.cif
1530456.cif
1527894.cif
2106125.cif
2106131.cif
2104726.cif
1539300.cif
7209464.cif
9002019.cif
4123981.cif
1525067.cif
1008316.cif
1527664.cif
9015217.cif
9017400.cif
7208746.cif
1538022.cif
2018870.cif
1523833.cif
1535937.cif
1548738.cif
1532094.cif
9003688.cif
9012975.cif
1530873.cif
7221115.cif
4338666.cif
4002556.cif
2106327.cif
7015591.cif
9015983.cif
4329780.cif
1532057.cif
1533349.cif
1530898.cif
1530126.cif
1563218.cif
9013470.cif
4343565.cif
1528027.cif
1537113.cif
9017164.cif
1523600.cif
1537675.cif
7222226.cif
2004493.cif
7108305.cif
1537098.cif
1511739.cif
4001117.cif
4338048.cif
1510369.cif
1501502.cif
7243182.cif
9003918.cif
9006653.cif
1537729.cif
2230981.cif
1534546.cif
1534552.cif
9002347.cif
1000414.cif
9000236.cif
9002409.cif
8104423.cif
9001666.cif
4341560.cif
9015607.cif
1525463.cif
9007565.cif
1566228.cif
1509360.cif
9011688.cif
1530287.cif
1559225.cif
1533942.cif
1524580.cif
1531833.cif
9014914.cif
1529932.cif
4343808.cif
1558107.cif
4309915.cif
2004652.cif
7221288.cif
9012342.cif
1522898.cif
9008468.cif
1532447.cif
1000170.cif
2003129.cif
4300058.cif
1532309.cif
9010569.cif
4124624.cif
1541481.cif
1527710.cif
4124630.cif
4113922.cif
9003267.cif
1537515.cif
1523560.cif
2107417.cif
1510814.cif
1536179.cif
9007003.cif
4000790.cif
4313032.cif
4344142.cif
9004244.cif
1526342.cif
2106735.cif
7708389.cif
9003259.cif
1536623.cif
2107359.cif
1563187.cif
1520914.cif
1543525.cif
7002414.cif
8100492.cif
2020043.cif
1522859.cif
2225829.cif
9002190.cif
1534791.cif
1533940.cif
1530291.cif
4320188.cif
1523004.cif
9001102.cif
4317042.cif
3000253.cif
9007567.cif
4124430.cif
9007201.cif
1539048.cif
1522326.cif
1530722.cif
1536435.cif
1524031.cif
9000234.cif
1536421.cif
2102745.cif
9012156.cif
1543900.cif
1562925.cif
1526801.cif
9008697.cif
4120695.cif
1538395.cif
1509160.cif
2300129.cif
1545418.cif
7222230.cif
9016495.cif
1524958.cif
9005576.cif
9008052.cif
2108334.cif
2311811.cif
9005210.cif
4317122.cif
1525273.cif
9008046.cif
9011517.cif
2211811.cif
7061574.cif
4339591.cif
2207083.cif
9011259.cif
1524145.cif
7703814.cif
1536233.cif
9007349.cif
1524804.cif
7223714.cif
9012977.cif
2212471.cif
1508444.cif
4336649.cif
4319682.cif
2013927.cif
1509772.cif
4118242.cif
1514051.cif
2106494.cif
4002959.cif
9010379.cif
9011701.cif
9007163.cif
1011123.cif
2105360.cif
9000618.cif
9001260.cif
2206809.cif
7221498.cif
9001248.cif
1539470.cif
9004456.cif
1526236.cif
9000630.cif
1533149.cif
1539302.cif
1560511.cif
1524353.cif
1522911.cif
4321123.cif
2108693.cif
7128389.cif
1529688.cif
1538975.cif
1542001.cif
2000581.cif
1509202.cif
4123968.cif
1534183.cif
4336311.cif
9005946.cif
2103089.cif
4001262.cif
1533821.cif
1538974.cif
2010793.cif
1541247.cif
4001538.cif
4124784.cif
1528597.cif
1536965.cif
7060496.cif
1541253.cif
1536030.cif
8103777.cif
9009167.cif
9004325.cif
1526545.cif
9013895.cif
1523429.cif
2002354.cif
5910189.cif
9017365.cif
7222806.cif
1540824.cif
9015214.cif
1533612.cif
1528540.cif
9005775.cif
1528226.cif
4325387.cif
1560909.cif
4309484.cif
1532097.cif
1509015.cif
4331669.cif
1542202.cif
1010957.cif
1524811.cif
1511666.cif
1560921.cif
1521028.cif
9000341.cif
4030518.cif
2019204.cif
2228061.cif
1532040.cif
9008709.cif
9011258.cif
2228707.cif
1010994.cif
1539883.cif
2209087.cif
1543849.cif
4001935.cif
1001133.cif
8100732.cif
2107006.cif
2107199.cif
7712111.cif
1536385.cif
1524795.cif
9012180.cif
1530086.cif
2020268.cif
8103398.cif
2021610.cif
1541125.cif
2310307.cif
1010604.cif
1536420.cif
9017749.cif
9006122.cif
1530737.cif
1010176.cif
9001659.cif
1534223.cif
4110964.cif
1101047.cif
1527511.cif
1531373.cif
7704954.cif
9007214.cif
9003072.cif
9013507.cif
1529528.cif
4345063.cif
2201752.cif
1541469.cif
4343823.cif
4305862.cif
9013922.cif
9011853.cif
1541333.cif
1543524.cif
1538828.cif
9016866.cif
1001286.cif
9004537.cif
9012355.cif
9007758.cif
1532444.cif
1526425.cif
4335962.cif
1563179.cif
4000961.cif
2220993.cif
9007002.cif
1536178.cif
4121993.cif
1533766.cif
1533772.cif
2018522.cif
4002192.cif
9006308.cif
8104144.cif
9008325.cif